"Subject","Trial","Selection","Response_Time","Alt","Brand","Price","Type"
2401,1,TRUE,5210,1,"Dove",0.6,"Milk"
2401,1,FALSE,5210,2,"Godiva",0.7,"Dark"
2401,1,FALSE,5210,3,"Dove",3.6,"White"
2401,2,FALSE,7480,1,"Godiva",2.7,"Milk w/ Nuts"
2401,2,TRUE,7480,2,"Godiva",3.9,"Dark"
2401,2,FALSE,7480,3,"Hershey's",0.7,"Milk w/ Nuts"
2401,3,FALSE,7704,1,"Hershey's",1.7,"Dark w/ Nuts"
2401,3,TRUE,7704,2,"Godiva",3.7,"Dark"
2401,3,FALSE,7704,3,"Hershey's",3,"Dark"
2401,4,TRUE,5774,1,"Lindt",1,"Milk"
2401,4,FALSE,5774,2,"Lindt",3.6,"Milk w/ Nuts"
2401,4,FALSE,5774,3,"Ghirardelli",0.5,"Dark w/ Nuts"
2401,5,FALSE,5238,1,"Hershey's",0.8,"Milk w/ Nuts"
2401,5,TRUE,5238,2,"Godiva",1.5,"Dark"
2401,5,FALSE,5238,3,"Hershey's",3.3,"White"
2401,6,FALSE,3423,1,"Lindt",3.1,"Milk"
2401,6,FALSE,3423,2,"Dove",2.5,"White"
2401,6,TRUE,3423,3,"Godiva",2.6,"Dark"
2401,7,FALSE,4691,1,"Godiva",3.1,"White"
2401,7,FALSE,4691,2,"Dove",4,"Dark w/ Nuts"
2401,7,TRUE,4691,3,"Godiva",2.1,"Milk"
2401,8,FALSE,3268,1,"Hershey's",0.8,"Dark w/ Nuts"
2401,8,FALSE,3268,2,"Godiva",3.2,"White"
2401,8,TRUE,3268,3,"Godiva",1.1,"Dark"
2401,9,FALSE,6719,1,"Lindt",2.3,"Dark"
2401,9,TRUE,6719,2,"Godiva",1.7,"Dark"
2401,9,FALSE,6719,3,"Godiva",3.8,"White"
2401,10,FALSE,3542,1,"Lindt",0.6,"Milk w/ Nuts"
2401,10,TRUE,3542,2,"Godiva",0.8,"Milk w/ Nuts"
2401,10,FALSE,3542,3,"Hershey's",3.7,"Dark"
2401,11,TRUE,3607,1,"Godiva",1.6,"Milk"
2401,11,FALSE,3607,2,"Dove",0.7,"White"
2401,11,FALSE,3607,3,"Hershey's",1.2,"Dark w/ Nuts"
2401,12,FALSE,6688,1,"Godiva",1.1,"Dark w/ Nuts"
2401,12,FALSE,6688,2,"Dove",0.8,"Dark w/ Nuts"
2401,12,TRUE,6688,3,"Lindt",3.7,"Dark"
2401,13,TRUE,4547,1,"Dove",3,"Milk"
2401,13,FALSE,4547,2,"Lindt",0.8,"White"
2401,13,FALSE,4547,3,"Godiva",1.9,"White"
2401,14,FALSE,5615,1,"Lindt",0.6,"Dark w/ Nuts"
2401,14,TRUE,5615,2,"Dove",3.5,"Milk"
2401,14,FALSE,5615,3,"Dove",1.9,"Milk w/ Nuts"
2401,15,TRUE,3723,1,"Godiva",3.7,"Dark"
2401,15,FALSE,3723,2,"Ghirardelli",1.5,"Dark"
2401,15,FALSE,3723,3,"Dove",1.6,"Dark"
2401,16,FALSE,4616,1,"Hershey's",0.5,"Milk w/ Nuts"
2401,16,TRUE,4616,2,"Dove",3.8,"Milk"
2401,16,FALSE,4616,3,"Dove",3.7,"Dark w/ Nuts"
2401,17,TRUE,3588,1,"Dove",3.9,"Milk"
2401,17,FALSE,3588,2,"Dove",1.2,"Milk w/ Nuts"
2401,17,FALSE,3588,3,"Lindt",0.5,"Milk w/ Nuts"
2401,18,TRUE,4796,1,"Godiva",2.8,"Milk w/ Nuts"
2401,18,FALSE,4796,2,"Lindt",2.7,"Milk"
2401,18,FALSE,4796,3,"Godiva",2.6,"White"
2401,19,TRUE,4394,1,"Hershey's",3.7,"Milk"
2401,19,FALSE,4394,2,"Dove",4,"Dark w/ Nuts"
2401,19,FALSE,4394,3,"Dove",2.8,"Dark"
2401,20,FALSE,6490,1,"Dove",0.7,"Dark"
2401,20,FALSE,6490,2,"Godiva",0.8,"White"
2401,20,TRUE,6490,3,"Hershey's",1.9,"Dark"
2401,21,FALSE,5664,1,"Ghirardelli",0.8,"Milk w/ Nuts"
2401,21,TRUE,5664,2,"Hershey's",3,"Milk"
2401,21,FALSE,5664,3,"Godiva",2.4,"Milk w/ Nuts"
2401,22,TRUE,4037,1,"Godiva",0.9,"Dark"
2401,22,FALSE,4037,2,"Dove",3.4,"Milk w/ Nuts"
2401,22,FALSE,4037,3,"Hershey's",3.4,"Dark w/ Nuts"
2401,23,TRUE,4764,1,"Godiva",0.6,"Dark w/ Nuts"
2401,23,FALSE,4764,2,"Dove",1.8,"White"
2401,23,FALSE,4764,3,"Dove",3.4,"Dark"
2401,24,FALSE,5663,1,"Hershey's",3.6,"Dark w/ Nuts"
2401,24,TRUE,5663,2,"Godiva",3.2,"Milk w/ Nuts"
2401,24,FALSE,5663,3,"Ghirardelli",1.4,"Milk w/ Nuts"
2401,25,FALSE,8058,1,"Lindt",1.1,"White"
2401,25,FALSE,8058,2,"Ghirardelli",0.8,"White"
2401,25,TRUE,8058,3,"Lindt",2,"Milk"
2402,1,FALSE,13161,1,"Hershey's",2.2,"Milk"
2402,1,TRUE,13161,2,"Godiva",2.1,"Dark w/ Nuts"
2402,1,FALSE,13161,3,"Dove",3.5,"Milk"
2402,2,FALSE,6346,1,"Ghirardelli",1.3,"Milk w/ Nuts"
2402,2,FALSE,6346,2,"Hershey's",1.7,"White"
2402,2,TRUE,6346,3,"Hershey's",3.5,"Milk"
2402,3,FALSE,5606,1,"Ghirardelli",1.6,"Milk w/ Nuts"
2402,3,FALSE,5606,2,"Dove",2,"Milk w/ Nuts"
2402,3,TRUE,5606,3,"Lindt",1.8,"Dark w/ Nuts"
2402,4,FALSE,7192,1,"Lindt",3.2,"Milk w/ Nuts"
2402,4,TRUE,7192,2,"Dove",2.5,"Dark w/ Nuts"
2402,4,FALSE,7192,3,"Lindt",0.8,"Milk"
2402,5,TRUE,11993,1,"Godiva",1.3,"Dark w/ Nuts"
2402,5,FALSE,11993,2,"Godiva",1.1,"Milk"
2402,5,FALSE,11993,3,"Hershey's",2.7,"Milk w/ Nuts"
2402,6,TRUE,4267,1,"Lindt",0.7,"Dark"
2402,6,FALSE,4267,2,"Hershey's",0.6,"White"
2402,6,FALSE,4267,3,"Lindt",3.3,"Milk w/ Nuts"
2402,7,TRUE,4163,1,"Lindt",0.9,"Dark"
2402,7,FALSE,4163,2,"Lindt",2.9,"White"
2402,7,FALSE,4163,3,"Ghirardelli",0.8,"Milk"
2402,8,FALSE,2617,1,"Lindt",2,"Milk w/ Nuts"
2402,8,TRUE,2617,2,"Ghirardelli",1.3,"Dark w/ Nuts"
2402,8,FALSE,2617,3,"Lindt",1.2,"Dark w/ Nuts"
2402,9,TRUE,6410,1,"Lindt",3.4,"Dark w/ Nuts"
2402,9,FALSE,6410,2,"Dove",1.8,"Dark"
2402,9,FALSE,6410,3,"Dove",3.1,"Dark w/ Nuts"
2402,10,TRUE,1681,1,"Lindt",1.1,"Dark"
2402,10,FALSE,1681,2,"Hershey's",1.6,"White"
2402,10,FALSE,1681,3,"Hershey's",3.8,"Milk w/ Nuts"
2402,11,FALSE,2486,1,"Hershey's",2.1,"Dark w/ Nuts"
2402,11,TRUE,2486,2,"Dove",2.9,"Dark"
2402,11,FALSE,2486,3,"Godiva",1.4,"White"
2402,12,FALSE,2604,1,"Hershey's",1,"White"
2402,12,FALSE,2604,2,"Hershey's",0.6,"Milk w/ Nuts"
2402,12,TRUE,2604,3,"Dove",2.8,"Milk w/ Nuts"
2402,13,FALSE,1742,1,"Ghirardelli",0.9,"White"
2402,13,TRUE,1742,2,"Dove",2.5,"Dark"
2402,13,FALSE,1742,3,"Hershey's",1.9,"White"
2402,14,FALSE,1633,1,"Hershey's",1.8,"Milk"
2402,14,TRUE,1633,2,"Godiva",3.4,"Dark"
2402,14,FALSE,1633,3,"Godiva",3.2,"Dark w/ Nuts"
2402,15,TRUE,3364,1,"Godiva",0.7,"Milk"
2402,15,FALSE,3364,2,"Hershey's",0.6,"White"
2402,15,FALSE,3364,3,"Hershey's",2.9,"Dark w/ Nuts"
2402,16,FALSE,4598,1,"Hershey's",2.3,"Milk w/ Nuts"
2402,16,TRUE,4598,2,"Ghirardelli",0.6,"Milk w/ Nuts"
2402,16,FALSE,4598,3,"Hershey's",0.8,"White"
2402,17,TRUE,1357,1,"Dove",4,"Dark"
2402,17,FALSE,1357,2,"Ghirardelli",2.7,"Milk"
2402,17,FALSE,1357,3,"Dove",1.3,"White"
2402,18,FALSE,2111,1,"Dove",2.1,"Milk w/ Nuts"
2402,18,FALSE,2111,2,"Ghirardelli",1.1,"White"
2402,18,TRUE,2111,3,"Ghirardelli",2.5,"Milk"
2402,19,FALSE,1991,1,"Hershey's",1.2,"Dark w/ Nuts"
2402,19,TRUE,1991,2,"Dove",2.9,"Milk"
2402,19,FALSE,1991,3,"Ghirardelli",1.5,"White"
2402,20,FALSE,2938,1,"Godiva",1.8,"Milk w/ Nuts"
2402,20,FALSE,2938,2,"Hershey's",3.2,"Dark"
2402,20,TRUE,2938,3,"Lindt",0.9,"Dark"
2402,21,FALSE,1703,1,"Ghirardelli",1.5,"White"
2402,21,FALSE,1703,2,"Godiva",2.1,"Milk w/ Nuts"
2402,21,TRUE,1703,3,"Lindt",0.6,"Dark"
2402,22,TRUE,2130,1,"Godiva",2.8,"Dark w/ Nuts"
2402,22,FALSE,2130,2,"Godiva",3.7,"Milk w/ Nuts"
2402,22,FALSE,2130,3,"Ghirardelli",2.2,"White"
2402,23,TRUE,6096,1,"Godiva",3.2,"Milk w/ Nuts"
2402,23,FALSE,6096,2,"Hershey's",4,"Dark w/ Nuts"
2402,23,FALSE,6096,3,"Ghirardelli",2.4,"White"
2402,24,FALSE,6170,1,"Godiva",0.9,"White"
2402,24,TRUE,6170,2,"Godiva",3.8,"Dark w/ Nuts"
2402,24,FALSE,6170,3,"Ghirardelli",1.8,"Milk w/ Nuts"
2402,25,TRUE,3605,1,"Godiva",2.3,"Milk w/ Nuts"
2402,25,FALSE,3605,2,"Lindt",1.3,"Milk w/ Nuts"
2402,25,FALSE,3605,3,"Dove",2.5,"Milk"
2403,1,FALSE,3629,1,"Dove",1.4,"White"
2403,1,TRUE,3629,2,"Dove",1,"Milk"
2403,1,FALSE,3629,3,"Lindt",2,"Milk w/ Nuts"
2403,2,FALSE,3374,1,"Godiva",3.5,"Milk"
2403,2,TRUE,3374,2,"Ghirardelli",2.2,"Milk"
2403,2,FALSE,3374,3,"Godiva",2.2,"Dark"
2403,3,FALSE,3055,1,"Ghirardelli",3.9,"Dark w/ Nuts"
2403,3,TRUE,3055,2,"Hershey's",1.2,"Milk"
2403,3,FALSE,3055,3,"Godiva",2.2,"Dark w/ Nuts"
2403,4,TRUE,6435,1,"Godiva",1.3,"Milk"
2403,4,FALSE,6435,2,"Lindt",0.7,"Dark w/ Nuts"
2403,4,FALSE,6435,3,"Hershey's",3.3,"Dark"
2403,5,FALSE,4997,1,"Godiva",2.8,"Dark"
2403,5,TRUE,4997,2,"Dove",1,"Dark w/ Nuts"
2403,5,FALSE,4997,3,"Ghirardelli",3.5,"Milk"
2403,6,FALSE,3763,1,"Lindt",1.3,"Milk w/ Nuts"
2403,6,FALSE,3763,2,"Godiva",2.5,"White"
2403,6,TRUE,3763,3,"Dove",0.8,"White"
2403,7,TRUE,4852,1,"Dove",1.4,"Dark"
2403,7,FALSE,4852,2,"Lindt",2.1,"Dark"
2403,7,FALSE,4852,3,"Godiva",3.1,"Dark"
2403,8,FALSE,3427,1,"Dove",2.9,"White"
2403,8,FALSE,3427,2,"Lindt",3,"Dark"
2403,8,TRUE,3427,3,"Godiva",2.2,"Milk w/ Nuts"
2403,9,TRUE,4681,1,"Godiva",1.2,"Dark w/ Nuts"
2403,9,FALSE,4681,2,"Lindt",2.5,"Dark w/ Nuts"
2403,9,FALSE,4681,3,"Dove",1.4,"Milk w/ Nuts"
2403,10,FALSE,3818,1,"Dove",2.5,"Dark w/ Nuts"
2403,10,TRUE,3818,2,"Godiva",0.9,"Dark w/ Nuts"
2403,10,FALSE,3818,3,"Lindt",3.2,"Dark w/ Nuts"
2403,11,FALSE,4842,1,"Godiva",3.7,"Milk w/ Nuts"
2403,11,FALSE,4842,2,"Godiva",1.4,"Dark"
2403,11,TRUE,4842,3,"Dove",1.7,"Milk"
2403,12,FALSE,8696,1,"Ghirardelli",3.7,"White"
2403,12,TRUE,8696,2,"Ghirardelli",3.3,"Milk"
2403,12,FALSE,8696,3,"Dove",2.3,"Dark"
2403,13,TRUE,2572,1,"Dove",1,"Dark"
2403,13,FALSE,2572,2,"Lindt",3.8,"Dark"
2403,13,FALSE,2572,3,"Ghirardelli",3.5,"Dark w/ Nuts"
2403,14,FALSE,4534,1,"Lindt",2.8,"Milk w/ Nuts"
2403,14,FALSE,4534,2,"Hershey's",2.8,"Dark w/ Nuts"
2403,14,TRUE,4534,3,"Hershey's",2.6,"Milk"
2403,15,FALSE,3950,1,"Ghirardelli",3,"Milk w/ Nuts"
2403,15,TRUE,3950,2,"Dove",2.7,"Dark"
2403,15,FALSE,3950,3,"Ghirardelli",3,"Dark"
2403,16,FALSE,2118,1,"Dove",3,"Milk"
2403,16,TRUE,2118,2,"Dove",2.5,"White"
2403,16,FALSE,2118,3,"Godiva",3.9,"Milk"
2403,17,TRUE,2251,1,"Lindt",0.5,"Dark"
2403,17,FALSE,2251,2,"Ghirardelli",0.6,"White"
2403,17,FALSE,2251,3,"Godiva",3.4,"Dark"
2403,18,TRUE,3593,1,"Dove",2.2,"Milk w/ Nuts"
2403,18,FALSE,3593,2,"Dove",3.6,"Dark"
2403,18,FALSE,3593,3,"Hershey's",3.8,"White"
2403,19,TRUE,2729,1,"Dove",2.2,"Dark w/ Nuts"
2403,19,FALSE,2729,2,"Hershey's",4,"Milk w/ Nuts"
2403,19,FALSE,2729,3,"Ghirardelli",2.9,"Dark"
2403,20,FALSE,2737,1,"Godiva",3.2,"Milk"
2403,20,TRUE,2737,2,"Lindt",0.6,"Dark"
2403,20,FALSE,2737,3,"Hershey's",2,"Dark w/ Nuts"
2403,21,FALSE,4198,1,"Ghirardelli",3.4,"White"
2403,21,FALSE,4198,2,"Lindt",2.5,"Dark"
2403,21,TRUE,4198,3,"Godiva",2.5,"White"
2403,22,FALSE,3436,1,"Godiva",3,"Dark w/ Nuts"
2403,22,TRUE,3436,2,"Lindt",1.1,"Dark"
2403,22,FALSE,3436,3,"Dove",3.8,"Milk"
2403,23,TRUE,3890,1,"Hershey's",0.7,"Milk"
2403,23,FALSE,3890,2,"Hershey's",2.2,"White"
2403,23,FALSE,3890,3,"Dove",2.7,"Milk w/ Nuts"
2403,24,TRUE,3168,1,"Dove",1.4,"Dark w/ Nuts"
2403,24,FALSE,3168,2,"Ghirardelli",3.3,"Milk"
2403,24,FALSE,3168,3,"Godiva",2.2,"Milk"
2403,25,FALSE,2122,1,"Hershey's",2.3,"Milk w/ Nuts"
2403,25,TRUE,2122,2,"Godiva",1.7,"Milk w/ Nuts"
2403,25,FALSE,2122,3,"Ghirardelli",2.7,"Milk w/ Nuts"
2405,1,FALSE,4028,1,"Lindt",3.9,"Dark w/ Nuts"
2405,1,TRUE,4028,2,"Ghirardelli",2.6,"Dark w/ Nuts"
2405,1,FALSE,4028,3,"Godiva",2.7,"Dark w/ Nuts"
2405,2,FALSE,3620,1,"Lindt",0.9,"Milk w/ Nuts"
2405,2,FALSE,3620,2,"Hershey's",3.3,"Dark w/ Nuts"
2405,2,TRUE,3620,3,"Hershey's",4,"Milk w/ Nuts"
2405,3,FALSE,1740,1,"Hershey's",3.6,"Milk"
2405,3,FALSE,1740,2,"Dove",1.6,"Milk"
2405,3,TRUE,1740,3,"Ghirardelli",1.7,"Milk w/ Nuts"
2405,4,TRUE,2685,1,"Godiva",1.4,"Milk w/ Nuts"
2405,4,FALSE,2685,2,"Ghirardelli",2.4,"White"
2405,4,FALSE,2685,3,"Godiva",3.8,"White"
2405,5,TRUE,4206,1,"Dove",3,"Milk w/ Nuts"
2405,5,FALSE,4206,2,"Godiva",2.9,"Dark w/ Nuts"
2405,5,FALSE,4206,3,"Dove",1.6,"Dark"
2405,6,FALSE,3110,1,"Lindt",2.5,"White"
2405,6,FALSE,3110,2,"Ghirardelli",2.6,"White"
2405,6,TRUE,3110,3,"Lindt",3.9,"Dark w/ Nuts"
2405,7,TRUE,2356,1,"Ghirardelli",0.7,"Dark w/ Nuts"
2405,7,FALSE,2356,2,"Godiva",2.9,"White"
2405,7,FALSE,2356,3,"Dove",0.7,"Milk"
2405,8,TRUE,4992,1,"Hershey's",0.6,"Milk w/ Nuts"
2405,8,FALSE,4992,2,"Ghirardelli",3.3,"Dark w/ Nuts"
2405,8,FALSE,4992,3,"Godiva",1.1,"White"
2405,9,TRUE,3786,1,"Hershey's",2.7,"Milk w/ Nuts"
2405,9,FALSE,3786,2,"Ghirardelli",2.3,"Dark w/ Nuts"
2405,9,FALSE,3786,3,"Godiva",2.6,"Dark"
2405,10,FALSE,3589,1,"Lindt",2.5,"Dark"
2405,10,FALSE,3589,2,"Godiva",1.5,"Dark"
2405,10,TRUE,3589,3,"Ghirardelli",1.4,"Dark w/ Nuts"
2405,11,FALSE,3333,1,"Ghirardelli",1.5,"White"
2405,11,FALSE,3333,2,"Dove",2,"Dark w/ Nuts"
2405,11,TRUE,3333,3,"Ghirardelli",2.5,"Dark"
2405,12,TRUE,2572,1,"Ghirardelli",1.7,"Milk"
2405,12,FALSE,2572,2,"Lindt",2.5,"Dark"
2405,12,FALSE,2572,3,"Dove",0.6,"Milk"
2405,13,FALSE,2836,1,"Dove",3.3,"Milk"
2405,13,FALSE,2836,2,"Hershey's",2.8,"Dark"
2405,13,TRUE,2836,3,"Ghirardelli",1.8,"Milk"
2405,14,FALSE,3343,1,"Lindt",3.5,"Dark"
2405,14,FALSE,3343,2,"Ghirardelli",1.3,"White"
2405,14,TRUE,3343,3,"Hershey's",0.9,"Milk w/ Nuts"
2405,15,FALSE,2753,1,"Hershey's",2.6,"Dark"
2405,15,TRUE,2753,2,"Godiva",3.9,"Dark"
2405,15,FALSE,2753,3,"Hershey's",2.9,"White"
2405,16,TRUE,2957,1,"Ghirardelli",1.1,"Milk w/ Nuts"
2405,16,FALSE,2957,2,"Ghirardelli",1.9,"Dark"
2405,16,FALSE,2957,3,"Godiva",2.1,"Milk w/ Nuts"
2405,17,FALSE,3035,1,"Ghirardelli",2.9,"White"
2405,17,TRUE,3035,2,"Godiva",2.4,"Milk"
2405,17,FALSE,3035,3,"Hershey's",3.9,"Milk w/ Nuts"
2405,18,FALSE,2175,1,"Godiva",3.4,"White"
2405,18,TRUE,2175,2,"Ghirardelli",3.9,"Dark"
2405,18,FALSE,2175,3,"Hershey's",1.9,"White"
2405,19,TRUE,3772,1,"Hershey's",2.9,"Milk w/ Nuts"
2405,19,FALSE,3772,2,"Dove",3.4,"Dark"
2405,19,FALSE,3772,3,"Hershey's",1.3,"Milk"
2405,20,FALSE,2802,1,"Lindt",3.5,"Dark w/ Nuts"
2405,20,TRUE,2802,2,"Dove",3.4,"Milk"
2405,20,FALSE,2802,3,"Lindt",0.7,"Dark"
2405,21,FALSE,2472,1,"Hershey's",3,"Milk"
2405,21,FALSE,2472,2,"Hershey's",1.8,"Dark"
2405,21,TRUE,2472,3,"Ghirardelli",3.5,"Milk"
2405,22,TRUE,2770,1,"Godiva",1.6,"Dark w/ Nuts"
2405,22,FALSE,2770,2,"Dove",1.8,"Dark w/ Nuts"
2405,22,FALSE,2770,3,"Lindt",3.6,"Dark w/ Nuts"
2405,23,FALSE,2299,1,"Godiva",1.5,"White"
2405,23,FALSE,2299,2,"Hershey's",1.3,"White"
2405,23,TRUE,2299,3,"Godiva",0.6,"Milk w/ Nuts"
2405,24,TRUE,2666,1,"Ghirardelli",2.5,"Dark"
2405,24,FALSE,2666,2,"Ghirardelli",0.8,"Dark w/ Nuts"
2405,24,FALSE,2666,3,"Lindt",2.1,"White"
2405,25,FALSE,2111,1,"Lindt",3.6,"White"
2405,25,FALSE,2111,2,"Hershey's",2.5,"White"
2405,25,TRUE,2111,3,"Ghirardelli",2,"Dark w/ Nuts"
2407,1,FALSE,4375,1,"Ghirardelli",3,"Dark"
2407,1,FALSE,4375,2,"Lindt",2.5,"White"
2407,1,TRUE,4375,3,"Hershey's",2.4,"Dark w/ Nuts"
2407,2,TRUE,3740,1,"Ghirardelli",2,"Milk"
2407,2,FALSE,3740,2,"Lindt",2.9,"White"
2407,2,FALSE,3740,3,"Godiva",1.9,"White"
2407,3,FALSE,2976,1,"Lindt",2.3,"Milk"
2407,3,TRUE,2976,2,"Hershey's",0.6,"Dark"
2407,3,FALSE,2976,3,"Godiva",0.9,"White"
2407,4,FALSE,4880,1,"Hershey's",1.3,"White"
2407,4,FALSE,4880,2,"Dove",1.3,"Dark"
2407,4,TRUE,4880,3,"Lindt",3,"Dark w/ Nuts"
2407,5,FALSE,9547,1,"Dove",3.7,"Milk"
2407,5,TRUE,9547,2,"Hershey's",3.6,"Milk w/ Nuts"
2407,5,FALSE,9547,3,"Lindt",3.6,"White"
2407,6,FALSE,3953,1,"Lindt",4,"White"
2407,6,FALSE,3953,2,"Dove",2.5,"White"
2407,6,TRUE,3953,3,"Lindt",0.8,"Milk w/ Nuts"
2407,7,FALSE,2387,1,"Godiva",2.5,"Milk"
2407,7,TRUE,2387,2,"Dove",2.4,"Dark w/ Nuts"
2407,7,FALSE,2387,3,"Dove",2.3,"White"
2407,8,TRUE,2861,1,"Hershey's",2.4,"Dark w/ Nuts"
2407,8,FALSE,2861,2,"Hershey's",1.8,"White"
2407,8,FALSE,2861,3,"Godiva",3.7,"Milk"
2407,9,FALSE,5692,1,"Dove",3.9,"Milk"
2407,9,FALSE,5692,2,"Dove",1.9,"Dark"
2407,9,TRUE,5692,3,"Ghirardelli",1.8,"Milk w/ Nuts"
2407,10,FALSE,5702,1,"Lindt",3.7,"Milk"
2407,10,FALSE,5702,2,"Dove",1.1,"Milk"
2407,10,TRUE,5702,3,"Hershey's",1,"Milk"
2407,11,FALSE,2200,1,"Godiva",3.3,"Dark"
2407,11,FALSE,2200,2,"Hershey's",3.3,"Dark"
2407,11,TRUE,2200,3,"Ghirardelli",0.6,"Dark w/ Nuts"
2407,12,FALSE,3660,1,"Godiva",1.6,"Milk"
2407,12,TRUE,3660,2,"Ghirardelli",1.1,"Dark w/ Nuts"
2407,12,FALSE,3660,3,"Lindt",1.3,"Milk"
2407,13,TRUE,2874,1,"Lindt",2,"Dark"
2407,13,FALSE,2874,2,"Ghirardelli",3.5,"White"
2407,13,FALSE,2874,3,"Lindt",3.7,"Milk w/ Nuts"
2407,14,FALSE,1783,1,"Lindt",1.9,"Milk w/ Nuts"
2407,14,FALSE,1783,2,"Godiva",3,"Dark"
2407,14,TRUE,1783,3,"Hershey's",0.6,"Dark"
2407,15,FALSE,6043,1,"Dove",3,"Milk w/ Nuts"
2407,15,FALSE,6043,2,"Ghirardelli",1.2,"Dark w/ Nuts"
2407,15,TRUE,6043,3,"Godiva",1.1,"White"
2407,16,FALSE,3340,1,"Lindt",3.3,"Milk w/ Nuts"
2407,16,TRUE,3340,2,"Ghirardelli",1.6,"Dark w/ Nuts"
2407,16,FALSE,3340,3,"Dove",1.4,"Dark w/ Nuts"
2407,17,FALSE,4053,1,"Lindt",3.3,"Dark w/ Nuts"
2407,17,FALSE,4053,2,"Lindt",2.8,"Milk"
2407,17,TRUE,4053,3,"Godiva",0.9,"Milk"
2407,18,TRUE,3085,1,"Lindt",0.8,"Dark"
2407,18,FALSE,3085,2,"Hershey's",3.5,"Milk"
2407,18,FALSE,3085,3,"Hershey's",2,"Dark w/ Nuts"
2407,19,FALSE,3485,1,"Godiva",3.3,"Dark"
2407,19,FALSE,3485,2,"Dove",3.1,"Milk w/ Nuts"
2407,19,TRUE,3485,3,"Ghirardelli",2.9,"Dark w/ Nuts"
2407,20,FALSE,1354,1,"Lindt",1.2,"Dark w/ Nuts"
2407,20,FALSE,1354,2,"Lindt",1.5,"White"
2407,20,TRUE,1354,3,"Dove",0.9,"Dark"
2407,21,TRUE,10592,1,"Hershey's",2.2,"White"
2407,21,FALSE,10592,2,"Lindt",3.3,"Dark w/ Nuts"
2407,21,FALSE,10592,3,"Hershey's",1.9,"Milk"
2407,22,FALSE,7078,1,"Dove",3.4,"Milk"
2407,22,TRUE,7078,2,"Ghirardelli",3.3,"Dark"
2407,22,FALSE,7078,3,"Hershey's",3.8,"Dark"
2407,23,TRUE,4497,1,"Ghirardelli",1.5,"Milk w/ Nuts"
2407,23,FALSE,4497,2,"Hershey's",2.8,"Dark"
2407,23,FALSE,4497,3,"Hershey's",2.5,"Milk w/ Nuts"
2407,24,TRUE,2922,1,"Godiva",0.5,"White"
2407,24,FALSE,2922,2,"Ghirardelli",1.1,"Dark w/ Nuts"
2407,24,FALSE,2922,3,"Ghirardelli",1.4,"Dark"
2407,25,FALSE,4129,1,"Godiva",0.9,"Milk"
2407,25,FALSE,4129,2,"Lindt",2.2,"Dark"
2407,25,TRUE,4129,3,"Ghirardelli",1,"Dark w/ Nuts"
2408,1,TRUE,8941,1,"Ghirardelli",3.8,"White"
2408,1,FALSE,8941,2,"Dove",2,"White"
2408,1,FALSE,8941,3,"Dove",2.2,"Dark w/ Nuts"
2408,2,FALSE,5569,1,"Ghirardelli",0.8,"Milk w/ Nuts"
2408,2,FALSE,5569,2,"Godiva",2.7,"Milk w/ Nuts"
2408,2,TRUE,5569,3,"Dove",0.9,"Milk"
2408,3,FALSE,6391,1,"Dove",2.6,"Milk w/ Nuts"
2408,3,TRUE,6391,2,"Hershey's",1.5,"Milk"
2408,3,FALSE,6391,3,"Lindt",3.4,"White"
2408,4,TRUE,8128,1,"Ghirardelli",2.9,"Dark"
2408,4,FALSE,8128,2,"Lindt",0.5,"Milk w/ Nuts"
2408,4,FALSE,8128,3,"Godiva",1.5,"Milk w/ Nuts"
2408,5,FALSE,10948,1,"Dove",3.9,"Milk"
2408,5,FALSE,10948,2,"Ghirardelli",1.5,"Dark w/ Nuts"
2408,5,TRUE,10948,3,"Godiva",1.1,"Milk"
2408,6,FALSE,6215,1,"Godiva",1.5,"Milk w/ Nuts"
2408,6,TRUE,6215,2,"Ghirardelli",1.4,"Milk"
2408,6,FALSE,6215,3,"Hershey's",2.5,"White"
2408,7,TRUE,7141,1,"Godiva",2.6,"Milk w/ Nuts"
2408,7,FALSE,7141,2,"Hershey's",3.4,"White"
2408,7,FALSE,7141,3,"Ghirardelli",1.4,"Dark w/ Nuts"
2408,8,FALSE,3075,1,"Godiva",0.8,"White"
2408,8,FALSE,3075,2,"Ghirardelli",1.1,"Milk w/ Nuts"
2408,8,TRUE,3075,3,"Godiva",0.5,"Dark"
2408,9,FALSE,2992,1,"Hershey's",0.6,"Dark w/ Nuts"
2408,9,TRUE,2992,2,"Godiva",2.2,"Milk"
2408,9,FALSE,2992,3,"Dove",1.1,"Dark w/ Nuts"
2408,10,FALSE,3248,1,"Ghirardelli",3.2,"Dark w/ Nuts"
2408,10,TRUE,3248,2,"Godiva",2.4,"Milk"
2408,10,FALSE,3248,3,"Dove",2.9,"White"
2408,11,FALSE,6022,1,"Godiva",4,"Dark"
2408,11,FALSE,6022,2,"Hershey's",3.5,"Milk w/ Nuts"
2408,11,TRUE,6022,3,"Dove",2.5,"Dark"
2408,12,FALSE,2571,1,"Lindt",2,"Milk w/ Nuts"
2408,12,TRUE,2571,2,"Godiva",3,"Milk"
2408,12,FALSE,2571,3,"Lindt",1,"Dark w/ Nuts"
2408,13,TRUE,8454,1,"Lindt",3.2,"Milk w/ Nuts"
2408,13,FALSE,8454,2,"Lindt",1.1,"Dark w/ Nuts"
2408,13,FALSE,8454,3,"Godiva",1,"Milk w/ Nuts"
2408,14,TRUE,1888,1,"Godiva",1.3,"Milk"
2408,14,FALSE,1888,2,"Godiva",2,"Milk w/ Nuts"
2408,14,FALSE,1888,3,"Dove",1.3,"Dark w/ Nuts"
2408,15,FALSE,1532,1,"Hershey's",3.1,"White"
2408,15,FALSE,1532,2,"Ghirardelli",3.7,"Milk w/ Nuts"
2408,15,TRUE,1532,3,"Lindt",3.6,"Milk"
2408,16,FALSE,2296,1,"Lindt",1,"Dark w/ Nuts"
2408,16,FALSE,2296,2,"Hershey's",4,"White"
2408,16,TRUE,2296,3,"Lindt",0.5,"Dark"
2408,17,FALSE,1574,1,"Godiva",2.5,"White"
2408,17,FALSE,1574,2,"Dove",3.5,"Dark"
2408,17,TRUE,1574,3,"Ghirardelli",2.3,"Milk"
2408,18,TRUE,6590,1,"Godiva",1,"White"
2408,18,FALSE,6590,2,"Lindt",3.3,"Dark w/ Nuts"
2408,18,FALSE,6590,3,"Ghirardelli",2.4,"Dark w/ Nuts"
2408,19,TRUE,4306,1,"Ghirardelli",0.8,"Milk w/ Nuts"
2408,19,FALSE,4306,2,"Hershey's",1.6,"Dark w/ Nuts"
2408,19,FALSE,4306,3,"Godiva",1.1,"Dark w/ Nuts"
2408,20,FALSE,3884,1,"Dove",3.2,"Milk w/ Nuts"
2408,20,FALSE,3884,2,"Lindt",2.2,"Dark w/ Nuts"
2408,20,TRUE,3884,3,"Hershey's",3,"Dark"
2408,21,FALSE,2502,1,"Dove",1.3,"Dark w/ Nuts"
2408,21,TRUE,2502,2,"Godiva",1.7,"Dark"
2408,21,FALSE,2502,3,"Dove",2.4,"White"
2408,22,TRUE,7149,1,"Dove",3.5,"Milk"
2408,22,FALSE,7149,2,"Ghirardelli",2.3,"Milk"
2408,22,FALSE,7149,3,"Ghirardelli",3.5,"Dark w/ Nuts"
2408,23,FALSE,6576,1,"Godiva",0.9,"White"
2408,23,FALSE,6576,2,"Dove",3,"Dark"
2408,23,TRUE,6576,3,"Ghirardelli",0.6,"Dark"
2408,24,FALSE,3214,1,"Lindt",1.2,"Dark"
2408,24,TRUE,3214,2,"Godiva",1.1,"Milk"
2408,24,FALSE,3214,3,"Dove",1.4,"Dark w/ Nuts"
2408,25,FALSE,7403,1,"Lindt",3.8,"Milk w/ Nuts"
2408,25,FALSE,7403,2,"Godiva",0.9,"Milk w/ Nuts"
2408,25,TRUE,7403,3,"Ghirardelli",0.7,"White"
2409,1,FALSE,4909,1,"Dove",0.6,"Milk"
2409,1,TRUE,4909,2,"Godiva",0.7,"Dark"
2409,1,FALSE,4909,3,"Dove",3.6,"White"
2409,2,FALSE,3844,1,"Godiva",2.7,"Milk w/ Nuts"
2409,2,TRUE,3844,2,"Godiva",3.9,"Dark"
2409,2,FALSE,3844,3,"Hershey's",0.7,"Milk w/ Nuts"
2409,3,FALSE,2767,1,"Hershey's",1.7,"Dark w/ Nuts"
2409,3,TRUE,2767,2,"Godiva",3.7,"Dark"
2409,3,FALSE,2767,3,"Hershey's",3,"Dark"
2409,4,TRUE,5956,1,"Lindt",1,"Milk"
2409,4,FALSE,5956,2,"Lindt",3.6,"Milk w/ Nuts"
2409,4,FALSE,5956,3,"Ghirardelli",0.5,"Dark w/ Nuts"
2409,5,FALSE,1456,1,"Hershey's",0.8,"Milk w/ Nuts"
2409,5,TRUE,1456,2,"Godiva",1.5,"Dark"
2409,5,FALSE,1456,3,"Hershey's",3.3,"White"
2409,6,FALSE,4408,1,"Lindt",3.1,"Milk"
2409,6,FALSE,4408,2,"Dove",2.5,"White"
2409,6,TRUE,4408,3,"Godiva",2.6,"Dark"
2409,7,TRUE,2852,1,"Godiva",3.1,"White"
2409,7,FALSE,2852,2,"Dove",4,"Dark w/ Nuts"
2409,7,FALSE,2852,3,"Godiva",2.1,"Milk"
2409,8,FALSE,3016,1,"Hershey's",0.8,"Dark w/ Nuts"
2409,8,FALSE,3016,2,"Godiva",3.2,"White"
2409,8,TRUE,3016,3,"Godiva",1.1,"Dark"
2409,9,FALSE,1021,1,"Lindt",2.3,"Dark"
2409,9,TRUE,1021,2,"Godiva",1.7,"Dark"
2409,9,FALSE,1021,3,"Godiva",3.8,"White"
2409,10,FALSE,2733,1,"Lindt",0.6,"Milk w/ Nuts"
2409,10,FALSE,2733,2,"Godiva",0.8,"Milk w/ Nuts"
2409,10,TRUE,2733,3,"Hershey's",3.7,"Dark"
2409,11,TRUE,2352,1,"Godiva",1.6,"Milk"
2409,11,FALSE,2352,2,"Dove",0.7,"White"
2409,11,FALSE,2352,3,"Hershey's",1.2,"Dark w/ Nuts"
2409,12,FALSE,2106,1,"Godiva",1.1,"Dark w/ Nuts"
2409,12,FALSE,2106,2,"Dove",0.8,"Dark w/ Nuts"
2409,12,TRUE,2106,3,"Lindt",3.7,"Dark"
2409,13,FALSE,3453,1,"Dove",3,"Milk"
2409,13,FALSE,3453,2,"Lindt",0.8,"White"
2409,13,TRUE,3453,3,"Godiva",1.9,"White"
2409,14,FALSE,2679,1,"Lindt",0.6,"Dark w/ Nuts"
2409,14,TRUE,2679,2,"Dove",3.5,"Milk"
2409,14,FALSE,2679,3,"Dove",1.9,"Milk w/ Nuts"
2409,15,FALSE,2182,1,"Godiva",3.7,"Dark"
2409,15,TRUE,2182,2,"Ghirardelli",1.5,"Dark"
2409,15,FALSE,2182,3,"Dove",1.6,"Dark"
2409,16,FALSE,2301,1,"Hershey's",0.5,"Milk w/ Nuts"
2409,16,TRUE,2301,2,"Dove",3.8,"Milk"
2409,16,FALSE,2301,3,"Dove",3.7,"Dark w/ Nuts"
2409,17,TRUE,1105,1,"Dove",3.9,"Milk"
2409,17,FALSE,1105,2,"Dove",1.2,"Milk w/ Nuts"
2409,17,FALSE,1105,3,"Lindt",0.5,"Milk w/ Nuts"
2409,18,FALSE,3470,1,"Godiva",2.8,"Milk w/ Nuts"
2409,18,FALSE,3470,2,"Lindt",2.7,"Milk"
2409,18,TRUE,3470,3,"Godiva",2.6,"White"
2409,19,FALSE,2278,1,"Hershey's",3.7,"Milk"
2409,19,FALSE,2278,2,"Dove",4,"Dark w/ Nuts"
2409,19,TRUE,2278,3,"Dove",2.8,"Dark"
2409,20,TRUE,4432,1,"Dove",0.7,"Dark"
2409,20,FALSE,4432,2,"Godiva",0.8,"White"
2409,20,FALSE,4432,3,"Hershey's",1.9,"Dark"
2409,21,FALSE,2886,1,"Ghirardelli",0.8,"Milk w/ Nuts"
2409,21,TRUE,2886,2,"Hershey's",3,"Milk"
2409,21,FALSE,2886,3,"Godiva",2.4,"Milk w/ Nuts"
2409,22,TRUE,1770,1,"Godiva",0.9,"Dark"
2409,22,FALSE,1770,2,"Dove",3.4,"Milk w/ Nuts"
2409,22,FALSE,1770,3,"Hershey's",3.4,"Dark w/ Nuts"
2409,23,FALSE,5288,1,"Godiva",0.6,"Dark w/ Nuts"
2409,23,FALSE,5288,2,"Dove",1.8,"White"
2409,23,TRUE,5288,3,"Dove",3.4,"Dark"
2409,24,FALSE,3724,1,"Hershey's",3.6,"Dark w/ Nuts"
2409,24,FALSE,3724,2,"Godiva",3.2,"Milk w/ Nuts"
2409,24,TRUE,3724,3,"Ghirardelli",1.4,"Milk w/ Nuts"
2409,25,FALSE,1427,1,"Lindt",1.1,"White"
2409,25,TRUE,1427,2,"Ghirardelli",0.8,"White"
2409,25,FALSE,1427,3,"Lindt",2,"Milk"
2410,1,FALSE,6274,1,"Dove",1.4,"White"
2410,1,TRUE,6274,2,"Dove",1,"Milk"
2410,1,FALSE,6274,3,"Lindt",2,"Milk w/ Nuts"
2410,2,TRUE,7000,1,"Godiva",3.5,"Milk"
2410,2,FALSE,7000,2,"Ghirardelli",2.2,"Milk"
2410,2,FALSE,7000,3,"Godiva",2.2,"Dark"
2410,3,FALSE,3769,1,"Ghirardelli",3.9,"Dark w/ Nuts"
2410,3,TRUE,3769,2,"Hershey's",1.2,"Milk"
2410,3,FALSE,3769,3,"Godiva",2.2,"Dark w/ Nuts"
2410,4,TRUE,3041,1,"Godiva",1.3,"Milk"
2410,4,FALSE,3041,2,"Lindt",0.7,"Dark w/ Nuts"
2410,4,FALSE,3041,3,"Hershey's",3.3,"Dark"
2410,5,FALSE,9033,1,"Godiva",2.8,"Dark"
2410,5,FALSE,9033,2,"Dove",1,"Dark w/ Nuts"
2410,5,TRUE,9033,3,"Ghirardelli",3.5,"Milk"
2410,6,FALSE,11118,1,"Lindt",1.3,"Milk w/ Nuts"
2410,6,TRUE,11118,2,"Godiva",2.5,"White"
2410,6,FALSE,11118,3,"Dove",0.8,"White"
2410,7,TRUE,24462,1,"Dove",1.4,"Dark"
2410,7,FALSE,24462,2,"Lindt",2.1,"Dark"
2410,7,FALSE,24462,3,"Godiva",3.1,"Dark"
2410,8,TRUE,12594,1,"Dove",2.9,"White"
2410,8,FALSE,12594,2,"Lindt",3,"Dark"
2410,8,FALSE,12594,3,"Godiva",2.2,"Milk w/ Nuts"
2410,9,FALSE,9228,1,"Godiva",1.2,"Dark w/ Nuts"
2410,9,FALSE,9228,2,"Lindt",2.5,"Dark w/ Nuts"
2410,9,TRUE,9228,3,"Dove",1.4,"Milk w/ Nuts"
2410,10,FALSE,10651,1,"Dove",2.5,"Dark w/ Nuts"
2410,10,TRUE,10651,2,"Godiva",0.9,"Dark w/ Nuts"
2410,10,FALSE,10651,3,"Lindt",3.2,"Dark w/ Nuts"
2410,11,FALSE,4123,1,"Godiva",3.7,"Milk w/ Nuts"
2410,11,FALSE,4123,2,"Godiva",1.4,"Dark"
2410,11,TRUE,4123,3,"Dove",1.7,"Milk"
2410,12,FALSE,7243,1,"Ghirardelli",3.7,"White"
2410,12,TRUE,7243,2,"Ghirardelli",3.3,"Milk"
2410,12,FALSE,7243,3,"Dove",2.3,"Dark"
2410,13,TRUE,6839,1,"Dove",1,"Dark"
2410,13,FALSE,6839,2,"Lindt",3.8,"Dark"
2410,13,FALSE,6839,3,"Ghirardelli",3.5,"Dark w/ Nuts"
2410,14,FALSE,6237,1,"Lindt",2.8,"Milk w/ Nuts"
2410,14,FALSE,6237,2,"Hershey's",2.8,"Dark w/ Nuts"
2410,14,TRUE,6237,3,"Hershey's",2.6,"Milk"
2410,15,TRUE,16037,1,"Ghirardelli",3,"Milk w/ Nuts"
2410,15,FALSE,16037,2,"Dove",2.7,"Dark"
2410,15,FALSE,16037,3,"Ghirardelli",3,"Dark"
2410,16,TRUE,8577,1,"Dove",3,"Milk"
2410,16,FALSE,8577,2,"Dove",2.5,"White"
2410,16,FALSE,8577,3,"Godiva",3.9,"Milk"
2410,17,FALSE,7927,1,"Lindt",0.5,"Dark"
2410,17,TRUE,7927,2,"Ghirardelli",0.6,"White"
2410,17,FALSE,7927,3,"Godiva",3.4,"Dark"
2410,18,TRUE,16668,1,"Dove",2.2,"Milk w/ Nuts"
2410,18,FALSE,16668,2,"Dove",3.6,"Dark"
2410,18,FALSE,16668,3,"Hershey's",3.8,"White"
2410,19,FALSE,12192,1,"Dove",2.2,"Dark w/ Nuts"
2410,19,TRUE,12192,2,"Hershey's",4,"Milk w/ Nuts"
2410,19,FALSE,12192,3,"Ghirardelli",2.9,"Dark"
2410,20,TRUE,5928,1,"Godiva",3.2,"Milk"
2410,20,FALSE,5928,2,"Lindt",0.6,"Dark"
2410,20,FALSE,5928,3,"Hershey's",2,"Dark w/ Nuts"
2410,21,FALSE,17833,1,"Ghirardelli",3.4,"White"
2410,21,FALSE,17833,2,"Lindt",2.5,"Dark"
2410,21,TRUE,17833,3,"Godiva",2.5,"White"
2410,22,FALSE,14396,1,"Godiva",3,"Dark w/ Nuts"
2410,22,TRUE,14396,2,"Lindt",1.1,"Dark"
2410,22,FALSE,14396,3,"Dove",3.8,"Milk"
2410,23,TRUE,6555,1,"Hershey's",0.7,"Milk"
2410,23,FALSE,6555,2,"Hershey's",2.2,"White"
2410,23,FALSE,6555,3,"Dove",2.7,"Milk w/ Nuts"
2410,24,FALSE,3873,1,"Dove",1.4,"Dark w/ Nuts"
2410,24,FALSE,3873,2,"Ghirardelli",3.3,"Milk"
2410,24,TRUE,3873,3,"Godiva",2.2,"Milk"
2410,25,FALSE,5676,1,"Hershey's",2.3,"Milk w/ Nuts"
2410,25,TRUE,5676,2,"Godiva",1.7,"Milk w/ Nuts"
2410,25,FALSE,5676,3,"Ghirardelli",2.7,"Milk w/ Nuts"
2411,1,FALSE,10829,1,"Hershey's",2.2,"Milk"
2411,1,TRUE,10829,2,"Godiva",2.1,"Dark w/ Nuts"
2411,1,FALSE,10829,3,"Dove",3.5,"Milk"
2411,2,TRUE,5306,1,"Ghirardelli",1.3,"Milk w/ Nuts"
2411,2,FALSE,5306,2,"Hershey's",1.7,"White"
2411,2,FALSE,5306,3,"Hershey's",3.5,"Milk"
2411,3,TRUE,4350,1,"Ghirardelli",1.6,"Milk w/ Nuts"
2411,3,FALSE,4350,2,"Dove",2,"Milk w/ Nuts"
2411,3,FALSE,4350,3,"Lindt",1.8,"Dark w/ Nuts"
2411,4,FALSE,9835,1,"Lindt",3.2,"Milk w/ Nuts"
2411,4,FALSE,9835,2,"Dove",2.5,"Dark w/ Nuts"
2411,4,TRUE,9835,3,"Lindt",0.8,"Milk"
2411,5,TRUE,9353,1,"Godiva",1.3,"Dark w/ Nuts"
2411,5,FALSE,9353,2,"Godiva",1.1,"Milk"
2411,5,FALSE,9353,3,"Hershey's",2.7,"Milk w/ Nuts"
2411,6,FALSE,12703,1,"Lindt",0.7,"Dark"
2411,6,FALSE,12703,2,"Hershey's",0.6,"White"
2411,6,TRUE,12703,3,"Lindt",3.3,"Milk w/ Nuts"
2411,7,FALSE,3969,1,"Lindt",0.9,"Dark"
2411,7,FALSE,3969,2,"Lindt",2.9,"White"
2411,7,TRUE,3969,3,"Ghirardelli",0.8,"Milk"
2411,8,FALSE,5733,1,"Lindt",2,"Milk w/ Nuts"
2411,8,TRUE,5733,2,"Ghirardelli",1.3,"Dark w/ Nuts"
2411,8,FALSE,5733,3,"Lindt",1.2,"Dark w/ Nuts"
2411,9,TRUE,13105,1,"Lindt",3.4,"Dark w/ Nuts"
2411,9,FALSE,13105,2,"Dove",1.8,"Dark"
2411,9,FALSE,13105,3,"Dove",3.1,"Dark w/ Nuts"
2411,10,FALSE,5570,1,"Lindt",1.1,"Dark"
2411,10,FALSE,5570,2,"Hershey's",1.6,"White"
2411,10,TRUE,5570,3,"Hershey's",3.8,"Milk w/ Nuts"
2411,11,TRUE,5773,1,"Hershey's",2.1,"Dark w/ Nuts"
2411,11,FALSE,5773,2,"Dove",2.9,"Dark"
2411,11,FALSE,5773,3,"Godiva",1.4,"White"
2411,12,FALSE,5236,1,"Hershey's",1,"White"
2411,12,TRUE,5236,2,"Hershey's",0.6,"Milk w/ Nuts"
2411,12,FALSE,5236,3,"Dove",2.8,"Milk w/ Nuts"
2411,13,FALSE,8902,1,"Ghirardelli",0.9,"White"
2411,13,TRUE,8902,2,"Dove",2.5,"Dark"
2411,13,FALSE,8902,3,"Hershey's",1.9,"White"
2411,14,TRUE,4533,1,"Hershey's",1.8,"Milk"
2411,14,FALSE,4533,2,"Godiva",3.4,"Dark"
2411,14,FALSE,4533,3,"Godiva",3.2,"Dark w/ Nuts"
2411,15,TRUE,16535,1,"Godiva",0.7,"Milk"
2411,15,FALSE,16535,2,"Hershey's",0.6,"White"
2411,15,FALSE,16535,3,"Hershey's",2.9,"Dark w/ Nuts"
2411,16,FALSE,2016,1,"Hershey's",2.3,"Milk w/ Nuts"
2411,16,TRUE,2016,2,"Ghirardelli",0.6,"Milk w/ Nuts"
2411,16,FALSE,2016,3,"Hershey's",0.8,"White"
2411,17,FALSE,2769,1,"Dove",4,"Dark"
2411,17,TRUE,2769,2,"Ghirardelli",2.7,"Milk"
2411,17,FALSE,2769,3,"Dove",1.3,"White"
2411,18,FALSE,3478,1,"Dove",2.1,"Milk w/ Nuts"
2411,18,FALSE,3478,2,"Ghirardelli",1.1,"White"
2411,18,TRUE,3478,3,"Ghirardelli",2.5,"Milk"
2411,19,TRUE,8690,1,"Hershey's",1.2,"Dark w/ Nuts"
2411,19,FALSE,8690,2,"Dove",2.9,"Milk"
2411,19,FALSE,8690,3,"Ghirardelli",1.5,"White"
2411,20,TRUE,6087,1,"Godiva",1.8,"Milk w/ Nuts"
2411,20,FALSE,6087,2,"Hershey's",3.2,"Dark"
2411,20,FALSE,6087,3,"Lindt",0.9,"Dark"
2411,21,FALSE,3531,1,"Ghirardelli",1.5,"White"
2411,21,TRUE,3531,2,"Godiva",2.1,"Milk w/ Nuts"
2411,21,FALSE,3531,3,"Lindt",0.6,"Dark"
2411,22,TRUE,5907,1,"Godiva",2.8,"Dark w/ Nuts"
2411,22,FALSE,5907,2,"Godiva",3.7,"Milk w/ Nuts"
2411,22,FALSE,5907,3,"Ghirardelli",2.2,"White"
2411,23,TRUE,9337,1,"Godiva",3.2,"Milk w/ Nuts"
2411,23,FALSE,9337,2,"Hershey's",4,"Dark w/ Nuts"
2411,23,FALSE,9337,3,"Ghirardelli",2.4,"White"
2411,24,FALSE,3917,1,"Godiva",0.9,"White"
2411,24,FALSE,3917,2,"Godiva",3.8,"Dark w/ Nuts"
2411,24,TRUE,3917,3,"Ghirardelli",1.8,"Milk w/ Nuts"
2411,25,FALSE,11672,1,"Godiva",2.3,"Milk w/ Nuts"
2411,25,TRUE,11672,2,"Lindt",1.3,"Milk w/ Nuts"
2411,25,FALSE,11672,3,"Dove",2.5,"Milk"
2412,1,FALSE,5051,1,"Hershey's",1.8,"White"
2412,1,FALSE,5051,2,"Hershey's",2.6,"Milk w/ Nuts"
2412,1,TRUE,5051,3,"Lindt",0.5,"Milk w/ Nuts"
2412,2,FALSE,3802,1,"Hershey's",1.9,"Milk w/ Nuts"
2412,2,FALSE,3802,2,"Godiva",3.4,"Milk w/ Nuts"
2412,2,TRUE,3802,3,"Lindt",2.6,"Dark"
2412,3,FALSE,2620,1,"Ghirardelli",2.7,"White"
2412,3,FALSE,2620,2,"Lindt",1,"Milk"
2412,3,TRUE,2620,3,"Godiva",1.7,"Dark w/ Nuts"
2412,4,FALSE,3063,1,"Hershey's",0.9,"Milk"
2412,4,TRUE,3063,2,"Hershey's",0.9,"Dark"
2412,4,FALSE,3063,3,"Dove",0.8,"White"
2412,5,FALSE,1436,1,"Lindt",3.3,"Dark"
2412,5,TRUE,1436,2,"Ghirardelli",3.5,"Dark w/ Nuts"
2412,5,FALSE,1436,3,"Godiva",1.3,"Dark w/ Nuts"
2412,6,TRUE,2013,1,"Dove",3.5,"Dark w/ Nuts"
2412,6,FALSE,2013,2,"Hershey's",3.2,"Dark"
2412,6,FALSE,2013,3,"Dove",3.9,"White"
2412,7,TRUE,4786,1,"Ghirardelli",0.6,"Milk"
2412,7,FALSE,4786,2,"Godiva",0.5,"Milk"
2412,7,FALSE,4786,3,"Lindt",3.8,"White"
2412,8,TRUE,2774,1,"Lindt",1.4,"Dark"
2412,8,FALSE,2774,2,"Hershey's",1.2,"Milk"
2412,8,FALSE,2774,3,"Dove",3.1,"Milk"
2412,9,FALSE,2773,1,"Ghirardelli",1.3,"Milk"
2412,9,FALSE,2773,2,"Dove",1.5,"Milk"
2412,9,TRUE,2773,3,"Dove",2.7,"Dark"
2412,10,FALSE,1904,1,"Ghirardelli",3.8,"White"
2412,10,TRUE,1904,2,"Ghirardelli",3.4,"Dark w/ Nuts"
2412,10,FALSE,1904,3,"Hershey's",1.7,"Dark"
2412,11,FALSE,2039,1,"Hershey's",0.6,"Dark"
2412,11,TRUE,2039,2,"Lindt",2.7,"Dark w/ Nuts"
2412,11,FALSE,2039,3,"Lindt",0.9,"Milk w/ Nuts"
2412,12,TRUE,1580,1,"Ghirardelli",3,"Dark w/ Nuts"
2412,12,FALSE,1580,2,"Godiva",1.1,"White"
2412,12,FALSE,1580,3,"Hershey's",0.7,"Dark"
2412,13,FALSE,3773,1,"Lindt",1.5,"Dark"
2412,13,TRUE,3773,2,"Hershey's",0.5,"Dark"
2412,13,FALSE,3773,3,"Ghirardelli",3.1,"Milk w/ Nuts"
2412,14,FALSE,4056,1,"Hershey's",1,"Dark w/ Nuts"
2412,14,FALSE,4056,2,"Dove",0.8,"Milk w/ Nuts"
2412,14,TRUE,4056,3,"Lindt",1,"Milk w/ Nuts"
2412,15,FALSE,3136,1,"Lindt",2.2,"White"
2412,15,TRUE,3136,2,"Ghirardelli",0.6,"White"
2412,15,FALSE,3136,3,"Hershey's",3.7,"White"
2412,16,TRUE,3524,1,"Hershey's",1.4,"Dark"
2412,16,FALSE,3524,2,"Hershey's",2.4,"Milk w/ Nuts"
2412,16,FALSE,3524,3,"Godiva",3.4,"White"
2412,17,TRUE,1790,1,"Ghirardelli",2.3,"Dark w/ Nuts"
2412,17,FALSE,1790,2,"Ghirardelli",1.6,"Milk"
2412,17,FALSE,1790,3,"Godiva",2.6,"Dark w/ Nuts"
2412,18,TRUE,3363,1,"Dove",1.3,"Dark w/ Nuts"
2412,18,FALSE,3363,2,"Hershey's",1.5,"White"
2412,18,FALSE,3363,3,"Dove",3,"Dark"
2412,19,FALSE,2195,1,"Hershey's",1,"Milk"
2412,19,FALSE,2195,2,"Hershey's",2.5,"Dark"
2412,19,TRUE,2195,3,"Dove",0.5,"Dark"
2412,20,FALSE,2558,1,"Ghirardelli",1,"Milk"
2412,20,TRUE,2558,2,"Ghirardelli",1,"Milk w/ Nuts"
2412,20,FALSE,2558,3,"Hershey's",3.5,"Milk w/ Nuts"
2412,21,FALSE,3204,1,"Dove",2.4,"White"
2412,21,FALSE,3204,2,"Hershey's",2.4,"White"
2412,21,TRUE,3204,3,"Lindt",1.2,"Dark w/ Nuts"
2412,22,TRUE,3937,1,"Dove",0.7,"Dark w/ Nuts"
2412,22,FALSE,3937,2,"Lindt",3.2,"Milk w/ Nuts"
2412,22,FALSE,3937,3,"Godiva",2.9,"Milk w/ Nuts"
2412,23,TRUE,2151,1,"Ghirardelli",3.5,"Dark"
2412,23,FALSE,2151,2,"Dove",2.8,"Dark"
2412,23,FALSE,2151,3,"Godiva",2.3,"White"
2412,24,FALSE,2764,1,"Ghirardelli",1.4,"White"
2412,24,TRUE,2764,2,"Lindt",1.7,"Milk w/ Nuts"
2412,24,FALSE,2764,3,"Lindt",3.9,"Milk"
2412,25,FALSE,2909,1,"Dove",3.6,"Dark"
2412,25,TRUE,2909,2,"Ghirardelli",3,"Dark"
2412,25,FALSE,2909,3,"Hershey's",3.1,"Milk w/ Nuts"
2413,1,TRUE,6146,1,"Lindt",3.9,"Dark w/ Nuts"
2413,1,FALSE,6146,2,"Ghirardelli",2.6,"Dark w/ Nuts"
2413,1,FALSE,6146,3,"Godiva",2.7,"Dark w/ Nuts"
2413,2,TRUE,5207,1,"Lindt",0.9,"Milk w/ Nuts"
2413,2,FALSE,5207,2,"Hershey's",3.3,"Dark w/ Nuts"
2413,2,FALSE,5207,3,"Hershey's",4,"Milk w/ Nuts"
2413,3,FALSE,4416,1,"Hershey's",3.6,"Milk"
2413,3,FALSE,4416,2,"Dove",1.6,"Milk"
2413,3,TRUE,4416,3,"Ghirardelli",1.7,"Milk w/ Nuts"
2413,4,TRUE,3556,1,"Godiva",1.4,"Milk w/ Nuts"
2413,4,FALSE,3556,2,"Ghirardelli",2.4,"White"
2413,4,FALSE,3556,3,"Godiva",3.8,"White"
2413,5,TRUE,4296,1,"Dove",3,"Milk w/ Nuts"
2413,5,FALSE,4296,2,"Godiva",2.9,"Dark w/ Nuts"
2413,5,FALSE,4296,3,"Dove",1.6,"Dark"
2413,6,TRUE,7076,1,"Lindt",2.5,"White"
2413,6,FALSE,7076,2,"Ghirardelli",2.6,"White"
2413,6,FALSE,7076,3,"Lindt",3.9,"Dark w/ Nuts"
2413,7,TRUE,8634,1,"Ghirardelli",0.7,"Dark w/ Nuts"
2413,7,FALSE,8634,2,"Godiva",2.9,"White"
2413,7,FALSE,8634,3,"Dove",0.7,"Milk"
2413,8,TRUE,5819,1,"Hershey's",0.6,"Milk w/ Nuts"
2413,8,FALSE,5819,2,"Ghirardelli",3.3,"Dark w/ Nuts"
2413,8,FALSE,5819,3,"Godiva",1.1,"White"
2413,9,FALSE,10822,1,"Hershey's",2.7,"Milk w/ Nuts"
2413,9,TRUE,10822,2,"Ghirardelli",2.3,"Dark w/ Nuts"
2413,9,FALSE,10822,3,"Godiva",2.6,"Dark"
2413,10,FALSE,6482,1,"Lindt",2.5,"Dark"
2413,10,FALSE,6482,2,"Godiva",1.5,"Dark"
2413,10,TRUE,6482,3,"Ghirardelli",1.4,"Dark w/ Nuts"
2413,11,FALSE,6695,1,"Ghirardelli",1.5,"White"
2413,11,TRUE,6695,2,"Dove",2,"Dark w/ Nuts"
2413,11,FALSE,6695,3,"Ghirardelli",2.5,"Dark"
2413,12,FALSE,8631,1,"Ghirardelli",1.7,"Milk"
2413,12,FALSE,8631,2,"Lindt",2.5,"Dark"
2413,12,TRUE,8631,3,"Dove",0.6,"Milk"
2413,13,FALSE,6354,1,"Dove",3.3,"Milk"
2413,13,FALSE,6354,2,"Hershey's",2.8,"Dark"
2413,13,TRUE,6354,3,"Ghirardelli",1.8,"Milk"
2413,14,FALSE,7075,1,"Lindt",3.5,"Dark"
2413,14,TRUE,7075,2,"Ghirardelli",1.3,"White"
2413,14,FALSE,7075,3,"Hershey's",0.9,"Milk w/ Nuts"
2413,15,FALSE,5151,1,"Hershey's",2.6,"Dark"
2413,15,FALSE,5151,2,"Godiva",3.9,"Dark"
2413,15,TRUE,5151,3,"Hershey's",2.9,"White"
2413,16,FALSE,4407,1,"Ghirardelli",1.1,"Milk w/ Nuts"
2413,16,FALSE,4407,2,"Ghirardelli",1.9,"Dark"
2413,16,TRUE,4407,3,"Godiva",2.1,"Milk w/ Nuts"
2413,17,FALSE,4438,1,"Ghirardelli",2.9,"White"
2413,17,TRUE,4438,2,"Godiva",2.4,"Milk"
2413,17,FALSE,4438,3,"Hershey's",3.9,"Milk w/ Nuts"
2413,18,FALSE,4313,1,"Godiva",3.4,"White"
2413,18,FALSE,4313,2,"Ghirardelli",3.9,"Dark"
2413,18,TRUE,4313,3,"Hershey's",1.9,"White"
2413,19,TRUE,5485,1,"Hershey's",2.9,"Milk w/ Nuts"
2413,19,FALSE,5485,2,"Dove",3.4,"Dark"
2413,19,FALSE,5485,3,"Hershey's",1.3,"Milk"
2413,20,FALSE,7413,1,"Lindt",3.5,"Dark w/ Nuts"
2413,20,TRUE,7413,2,"Dove",3.4,"Milk"
2413,20,FALSE,7413,3,"Lindt",0.7,"Dark"
2413,21,FALSE,5851,1,"Hershey's",3,"Milk"
2413,21,FALSE,5851,2,"Hershey's",1.8,"Dark"
2413,21,TRUE,5851,3,"Ghirardelli",3.5,"Milk"
2413,22,TRUE,5710,1,"Godiva",1.6,"Dark w/ Nuts"
2413,22,FALSE,5710,2,"Dove",1.8,"Dark w/ Nuts"
2413,22,FALSE,5710,3,"Lindt",3.6,"Dark w/ Nuts"
2413,23,FALSE,4555,1,"Godiva",1.5,"White"
2413,23,FALSE,4555,2,"Hershey's",1.3,"White"
2413,23,TRUE,4555,3,"Godiva",0.6,"Milk w/ Nuts"
2413,24,FALSE,5234,1,"Ghirardelli",2.5,"Dark"
2413,24,TRUE,5234,2,"Ghirardelli",0.8,"Dark w/ Nuts"
2413,24,FALSE,5234,3,"Lindt",2.1,"White"
2413,25,FALSE,8259,1,"Lindt",3.6,"White"
2413,25,TRUE,8259,2,"Hershey's",2.5,"White"
2413,25,FALSE,8259,3,"Ghirardelli",2,"Dark w/ Nuts"
2414,1,TRUE,4745,1,"Lindt",3.7,"Dark"
2414,1,FALSE,4745,2,"Lindt",3.4,"White"
2414,1,FALSE,4745,3,"Hershey's",2.8,"Milk"
2414,2,FALSE,4320,1,"Ghirardelli",4,"Milk"
2414,2,FALSE,4320,2,"Lindt",1.3,"Dark w/ Nuts"
2414,2,TRUE,4320,3,"Godiva",3.8,"Dark w/ Nuts"
2414,3,FALSE,3003,1,"Hershey's",3,"Milk w/ Nuts"
2414,3,TRUE,3003,2,"Dove",1.3,"White"
2414,3,FALSE,3003,3,"Hershey's",3.6,"Dark w/ Nuts"
2414,4,TRUE,5747,1,"Ghirardelli",1.4,"Dark w/ Nuts"
2414,4,FALSE,5747,2,"Hershey's",1.4,"Dark w/ Nuts"
2414,4,FALSE,5747,3,"Lindt",2.5,"White"
2414,5,FALSE,5022,1,"Ghirardelli",0.7,"Dark w/ Nuts"
2414,5,FALSE,5022,2,"Dove",1.6,"White"
2414,5,TRUE,5022,3,"Dove",1.6,"Dark"
2414,6,TRUE,6331,1,"Ghirardelli",3.7,"Dark"
2414,6,FALSE,6331,2,"Godiva",3.6,"White"
2414,6,FALSE,6331,3,"Ghirardelli",2.1,"Dark"
2414,7,FALSE,7510,1,"Dove",3.5,"White"
2414,7,TRUE,7510,2,"Godiva",3.6,"Dark"
2414,7,FALSE,7510,3,"Dove",2.9,"White"
2414,8,TRUE,7772,1,"Dove",1.4,"Milk w/ Nuts"
2414,8,FALSE,7772,2,"Ghirardelli",1.2,"Milk"
2414,8,FALSE,7772,3,"Lindt",1.7,"Milk"
2414,9,FALSE,3451,1,"Godiva",3.8,"Milk"
2414,9,FALSE,3451,2,"Dove",2,"Milk"
2414,9,TRUE,3451,3,"Lindt",1.3,"White"
2414,10,TRUE,3569,1,"Lindt",2.2,"Dark"
2414,10,FALSE,3569,2,"Lindt",2.8,"Milk w/ Nuts"
2414,10,FALSE,3569,3,"Hershey's",0.8,"Dark w/ Nuts"
2414,11,FALSE,4925,1,"Hershey's",1.7,"White"
2414,11,TRUE,4925,2,"Lindt",1.9,"Milk w/ Nuts"
2414,11,FALSE,4925,3,"Godiva",3.4,"White"
2414,12,TRUE,4960,1,"Dove",1.7,"Dark"
2414,12,FALSE,4960,2,"Hershey's",3.1,"Dark"
2414,12,FALSE,4960,3,"Lindt",3.1,"Milk w/ Nuts"
2414,13,TRUE,2388,1,"Lindt",1.9,"Dark w/ Nuts"
2414,13,FALSE,2388,2,"Dove",0.6,"White"
2414,13,FALSE,2388,3,"Lindt",0.5,"Milk w/ Nuts"
2414,14,FALSE,5683,1,"Ghirardelli",2.9,"White"
2414,14,FALSE,5683,2,"Ghirardelli",3.4,"Milk w/ Nuts"
2414,14,TRUE,5683,3,"Ghirardelli",3.4,"Dark w/ Nuts"
2414,15,TRUE,2253,1,"Lindt",3,"Dark w/ Nuts"
2414,15,FALSE,2253,2,"Hershey's",0.9,"Milk w/ Nuts"
2414,15,FALSE,2253,3,"Lindt",2,"Milk"
2414,16,FALSE,2182,1,"Lindt",3.6,"White"
2414,16,TRUE,2182,2,"Ghirardelli",3.1,"Dark w/ Nuts"
2414,16,FALSE,2182,3,"Ghirardelli",3.6,"Milk"
2414,17,TRUE,1743,1,"Lindt",1.9,"Dark w/ Nuts"
2414,17,FALSE,1743,2,"Lindt",3.9,"Milk w/ Nuts"
2414,17,FALSE,1743,3,"Lindt",2.8,"White"
2414,18,TRUE,2737,1,"Godiva",1.3,"Dark"
2414,18,FALSE,2737,2,"Ghirardelli",3.5,"Milk"
2414,18,FALSE,2737,3,"Lindt",0.7,"Dark"
2414,19,TRUE,2818,1,"Godiva",1.8,"Dark w/ Nuts"
2414,19,FALSE,2818,2,"Dove",2.2,"Dark"
2414,19,FALSE,2818,3,"Godiva",0.7,"Milk w/ Nuts"
2414,20,FALSE,2260,1,"Dove",0.6,"Milk"
2414,20,TRUE,2260,2,"Lindt",3.3,"Dark"
2414,20,FALSE,2260,3,"Hershey's",1.7,"Dark w/ Nuts"
2414,21,FALSE,1776,1,"Lindt",2.1,"White"
2414,21,FALSE,1776,2,"Hershey's",2.6,"Dark"
2414,21,TRUE,1776,3,"Godiva",2.8,"Dark w/ Nuts"
2414,22,FALSE,4615,1,"Lindt",2.6,"Milk"
2414,22,TRUE,4615,2,"Lindt",2,"Dark"
2414,22,FALSE,4615,3,"Ghirardelli",2.4,"Dark w/ Nuts"
2414,23,FALSE,4715,1,"Ghirardelli",2.4,"Dark"
2414,23,TRUE,4715,2,"Godiva",3.5,"Milk w/ Nuts"
2414,23,FALSE,4715,3,"Lindt",3.9,"White"
2414,24,FALSE,3055,1,"Ghirardelli",0.6,"Milk w/ Nuts"
2414,24,TRUE,3055,2,"Godiva",3.3,"Dark"
2414,24,FALSE,3055,3,"Dove",2.6,"White"
2414,25,FALSE,2723,1,"Lindt",3.3,"Dark"
2414,25,FALSE,2723,2,"Hershey's",2.1,"Dark"
2414,25,TRUE,2723,3,"Lindt",3,"Dark w/ Nuts"
2415,1,TRUE,4188,1,"Ghirardelli",3,"Dark"
2415,1,FALSE,4188,2,"Lindt",2.5,"White"
2415,1,FALSE,4188,3,"Hershey's",2.4,"Dark w/ Nuts"
2415,2,TRUE,2402,1,"Ghirardelli",2,"Milk"
2415,2,FALSE,2402,2,"Lindt",2.9,"White"
2415,2,FALSE,2402,3,"Godiva",1.9,"White"
2415,3,FALSE,2098,1,"Lindt",2.3,"Milk"
2415,3,TRUE,2098,2,"Hershey's",0.6,"Dark"
2415,3,FALSE,2098,3,"Godiva",0.9,"White"
2415,4,FALSE,2643,1,"Hershey's",1.3,"White"
2415,4,TRUE,2643,2,"Dove",1.3,"Dark"
2415,4,FALSE,2643,3,"Lindt",3,"Dark w/ Nuts"
2415,5,TRUE,1886,1,"Dove",3.7,"Milk"
2415,5,FALSE,1886,2,"Hershey's",3.6,"Milk w/ Nuts"
2415,5,FALSE,1886,3,"Lindt",3.6,"White"
2415,6,FALSE,2432,1,"Lindt",4,"White"
2415,6,FALSE,2432,2,"Dove",2.5,"White"
2415,6,TRUE,2432,3,"Lindt",0.8,"Milk w/ Nuts"
2415,7,FALSE,2276,1,"Godiva",2.5,"Milk"
2415,7,TRUE,2276,2,"Dove",2.4,"Dark w/ Nuts"
2415,7,FALSE,2276,3,"Dove",2.3,"White"
2415,8,FALSE,2535,1,"Hershey's",2.4,"Dark w/ Nuts"
2415,8,FALSE,2535,2,"Hershey's",1.8,"White"
2415,8,TRUE,2535,3,"Godiva",3.7,"Milk"
2415,9,TRUE,2616,1,"Dove",3.9,"Milk"
2415,9,FALSE,2616,2,"Dove",1.9,"Dark"
2415,9,FALSE,2616,3,"Ghirardelli",1.8,"Milk w/ Nuts"
2415,10,TRUE,2529,1,"Lindt",3.7,"Milk"
2415,10,FALSE,2529,2,"Dove",1.1,"Milk"
2415,10,FALSE,2529,3,"Hershey's",1,"Milk"
2415,11,TRUE,2604,1,"Godiva",3.3,"Dark"
2415,11,FALSE,2604,2,"Hershey's",3.3,"Dark"
2415,11,FALSE,2604,3,"Ghirardelli",0.6,"Dark w/ Nuts"
2415,12,FALSE,2546,1,"Godiva",1.6,"Milk"
2415,12,FALSE,2546,2,"Ghirardelli",1.1,"Dark w/ Nuts"
2415,12,TRUE,2546,3,"Lindt",1.3,"Milk"
2415,13,TRUE,1910,1,"Lindt",2,"Dark"
2415,13,FALSE,1910,2,"Ghirardelli",3.5,"White"
2415,13,FALSE,1910,3,"Lindt",3.7,"Milk w/ Nuts"
2415,14,TRUE,3237,1,"Lindt",1.9,"Milk w/ Nuts"
2415,14,FALSE,3237,2,"Godiva",3,"Dark"
2415,14,FALSE,3237,3,"Hershey's",0.6,"Dark"
2415,15,FALSE,2270,1,"Dove",3,"Milk w/ Nuts"
2415,15,TRUE,2270,2,"Ghirardelli",1.2,"Dark w/ Nuts"
2415,15,FALSE,2270,3,"Godiva",1.1,"White"
2415,16,TRUE,1830,1,"Lindt",3.3,"Milk w/ Nuts"
2415,16,FALSE,1830,2,"Ghirardelli",1.6,"Dark w/ Nuts"
2415,16,FALSE,1830,3,"Dove",1.4,"Dark w/ Nuts"
2415,17,FALSE,2310,1,"Lindt",3.3,"Dark w/ Nuts"
2415,17,TRUE,2310,2,"Lindt",2.8,"Milk"
2415,17,FALSE,2310,3,"Godiva",0.9,"Milk"
2415,18,TRUE,1906,1,"Lindt",0.8,"Dark"
2415,18,FALSE,1906,2,"Hershey's",3.5,"Milk"
2415,18,FALSE,1906,3,"Hershey's",2,"Dark w/ Nuts"
2415,19,TRUE,2096,1,"Godiva",3.3,"Dark"
2415,19,FALSE,2096,2,"Dove",3.1,"Milk w/ Nuts"
2415,19,FALSE,2096,3,"Ghirardelli",2.9,"Dark w/ Nuts"
2415,20,FALSE,2861,1,"Lindt",1.2,"Dark w/ Nuts"
2415,20,FALSE,2861,2,"Lindt",1.5,"White"
2415,20,TRUE,2861,3,"Dove",0.9,"Dark"
2415,21,FALSE,2761,1,"Hershey's",2.2,"White"
2415,21,TRUE,2761,2,"Lindt",3.3,"Dark w/ Nuts"
2415,21,FALSE,2761,3,"Hershey's",1.9,"Milk"
2415,22,FALSE,3127,1,"Dove",3.4,"Milk"
2415,22,TRUE,3127,2,"Ghirardelli",3.3,"Dark"
2415,22,FALSE,3127,3,"Hershey's",3.8,"Dark"
2415,23,FALSE,2688,1,"Ghirardelli",1.5,"Milk w/ Nuts"
2415,23,TRUE,2688,2,"Hershey's",2.8,"Dark"
2415,23,FALSE,2688,3,"Hershey's",2.5,"Milk w/ Nuts"
2415,24,FALSE,2654,1,"Godiva",0.5,"White"
2415,24,FALSE,2654,2,"Ghirardelli",1.1,"Dark w/ Nuts"
2415,24,TRUE,2654,3,"Ghirardelli",1.4,"Dark"
2415,25,FALSE,1736,1,"Godiva",0.9,"Milk"
2415,25,TRUE,1736,2,"Lindt",2.2,"Dark"
2415,25,FALSE,1736,3,"Ghirardelli",1,"Dark w/ Nuts"
2417,1,TRUE,4719,1,"Dove",0.6,"Milk"
2417,1,FALSE,4719,2,"Godiva",0.7,"Dark"
2417,1,FALSE,4719,3,"Dove",3.6,"White"
2417,2,TRUE,5492,1,"Godiva",2.7,"Milk w/ Nuts"
2417,2,FALSE,5492,2,"Godiva",3.9,"Dark"
2417,2,FALSE,5492,3,"Hershey's",0.7,"Milk w/ Nuts"
2417,3,TRUE,3749,1,"Hershey's",1.7,"Dark w/ Nuts"
2417,3,FALSE,3749,2,"Godiva",3.7,"Dark"
2417,3,FALSE,3749,3,"Hershey's",3,"Dark"
2417,4,FALSE,3821,1,"Lindt",1,"Milk"
2417,4,FALSE,3821,2,"Lindt",3.6,"Milk w/ Nuts"
2417,4,TRUE,3821,3,"Ghirardelli",0.5,"Dark w/ Nuts"
2417,5,FALSE,3809,1,"Hershey's",0.8,"Milk w/ Nuts"
2417,5,TRUE,3809,2,"Godiva",1.5,"Dark"
2417,5,FALSE,3809,3,"Hershey's",3.3,"White"
2417,6,FALSE,3505,1,"Lindt",3.1,"Milk"
2417,6,FALSE,3505,2,"Dove",2.5,"White"
2417,6,TRUE,3505,3,"Godiva",2.6,"Dark"
2417,7,FALSE,6703,1,"Godiva",3.1,"White"
2417,7,FALSE,6703,2,"Dove",4,"Dark w/ Nuts"
2417,7,TRUE,6703,3,"Godiva",2.1,"Milk"
2417,8,FALSE,3744,1,"Hershey's",0.8,"Dark w/ Nuts"
2417,8,FALSE,3744,2,"Godiva",3.2,"White"
2417,8,TRUE,3744,3,"Godiva",1.1,"Dark"
2417,9,FALSE,3253,1,"Lindt",2.3,"Dark"
2417,9,TRUE,3253,2,"Godiva",1.7,"Dark"
2417,9,FALSE,3253,3,"Godiva",3.8,"White"
2417,10,FALSE,4583,1,"Lindt",0.6,"Milk w/ Nuts"
2417,10,TRUE,4583,2,"Godiva",0.8,"Milk w/ Nuts"
2417,10,FALSE,4583,3,"Hershey's",3.7,"Dark"
2417,11,FALSE,5733,1,"Godiva",1.6,"Milk"
2417,11,FALSE,5733,2,"Dove",0.7,"White"
2417,11,TRUE,5733,3,"Hershey's",1.2,"Dark w/ Nuts"
2417,12,TRUE,7833,1,"Godiva",1.1,"Dark w/ Nuts"
2417,12,FALSE,7833,2,"Dove",0.8,"Dark w/ Nuts"
2417,12,FALSE,7833,3,"Lindt",3.7,"Dark"
2417,13,FALSE,4066,1,"Dove",3,"Milk"
2417,13,TRUE,4066,2,"Lindt",0.8,"White"
2417,13,FALSE,4066,3,"Godiva",1.9,"White"
2417,14,TRUE,5036,1,"Lindt",0.6,"Dark w/ Nuts"
2417,14,FALSE,5036,2,"Dove",3.5,"Milk"
2417,14,FALSE,5036,3,"Dove",1.9,"Milk w/ Nuts"
2417,15,FALSE,3692,1,"Godiva",3.7,"Dark"
2417,15,TRUE,3692,2,"Ghirardelli",1.5,"Dark"
2417,15,FALSE,3692,3,"Dove",1.6,"Dark"
2417,16,TRUE,9106,1,"Hershey's",0.5,"Milk w/ Nuts"
2417,16,FALSE,9106,2,"Dove",3.8,"Milk"
2417,16,FALSE,9106,3,"Dove",3.7,"Dark w/ Nuts"
2417,17,FALSE,5411,1,"Dove",3.9,"Milk"
2417,17,TRUE,5411,2,"Dove",1.2,"Milk w/ Nuts"
2417,17,FALSE,5411,3,"Lindt",0.5,"Milk w/ Nuts"
2417,18,FALSE,4725,1,"Godiva",2.8,"Milk w/ Nuts"
2417,18,TRUE,4725,2,"Lindt",2.7,"Milk"
2417,18,FALSE,4725,3,"Godiva",2.6,"White"
2417,19,FALSE,2749,1,"Hershey's",3.7,"Milk"
2417,19,FALSE,2749,2,"Dove",4,"Dark w/ Nuts"
2417,19,TRUE,2749,3,"Dove",2.8,"Dark"
2417,20,TRUE,3884,1,"Dove",0.7,"Dark"
2417,20,FALSE,3884,2,"Godiva",0.8,"White"
2417,20,FALSE,3884,3,"Hershey's",1.9,"Dark"
2417,21,TRUE,5451,1,"Ghirardelli",0.8,"Milk w/ Nuts"
2417,21,FALSE,5451,2,"Hershey's",3,"Milk"
2417,21,FALSE,5451,3,"Godiva",2.4,"Milk w/ Nuts"
2417,22,TRUE,3438,1,"Godiva",0.9,"Dark"
2417,22,FALSE,3438,2,"Dove",3.4,"Milk w/ Nuts"
2417,22,FALSE,3438,3,"Hershey's",3.4,"Dark w/ Nuts"
2417,23,TRUE,6070,1,"Godiva",0.6,"Dark w/ Nuts"
2417,23,FALSE,6070,2,"Dove",1.8,"White"
2417,23,FALSE,6070,3,"Dove",3.4,"Dark"
2417,24,FALSE,7130,1,"Hershey's",3.6,"Dark w/ Nuts"
2417,24,FALSE,7130,2,"Godiva",3.2,"Milk w/ Nuts"
2417,24,TRUE,7130,3,"Ghirardelli",1.4,"Milk w/ Nuts"
2417,25,FALSE,7315,1,"Lindt",1.1,"White"
2417,25,FALSE,7315,2,"Ghirardelli",0.8,"White"
2417,25,TRUE,7315,3,"Lindt",2,"Milk"
